,Sub,Run,TR,Onset,Item,Change,CorrResp,Resp,RT,Acc,image_on,button_on,button_off,Trial_ID
0,sub003,3,3,0,,0,,,,,,,,
1,sub003,3,4,2,,0,,,,,,,,
2,sub003,3,5,4,,0,,,,,,,,
3,sub003,3,6,6,C,0.0,,1,0.4666679040001327,,12.005211853000219,13.02195214700032,13.921887718000107,0
4,sub003,3,7,8,,0,,,,,,,,
5,sub003,3,8,10,,0,,,,,,,,
6,sub003,3,9,12,B,0.0,,2,0.450157592999858,,18.005263453000225,19.02216657000008,19.922088695000184,1
7,sub003,3,10,14,,0,,,,,,,,
8,sub003,3,11,16,,0,,,,,,,,
9,sub003,3,12,18,,0,,,,,,,,
10,sub003,3,13,20,C,0.0,,1,0.4333343599996624,,26.005465584000376,27.022206309000012,27.922127588999956,2
11,sub003,3,14,22,,0,,,,,,,,
12,sub003,3,15,24,,0,,,,,,,,
13,sub003,3,16,26,D,0.0,,2,0.36669342200002575,,32.005482207000114,33.022248279999985,33.92216953700017,3
14,sub003,3,17,28,,0,,,,,,,,
15,sub003,3,18,30,,0,,,,,,,,
16,sub003,3,19,32,,0,,,,,,,,
17,sub003,3,20,34,C,0.0,,1,0.33335487699969235,,40.00553813200031,41.02229550100037,41.92222367500017,4
18,sub003,3,21,36,,0,,,,,,,,
19,sub003,3,22,38,,0,,,,,,,,
20,sub003,3,23,40,B,0.0,,2,0.4500004629999239,,46.00557610400028,47.02234838499999,47.922249958000066,5
21,sub003,3,24,42,,0,,,,,,,,
22,sub003,3,25,44,,0,,,,,,,,
23,sub003,3,26,46,D,0.0,,2,0.33334128800015606,,52.00560748099997,53.02237408700012,53.92229307400021,6
24,sub003,3,27,48,,0,,,,,,,,
25,sub003,3,28,50,,0,,,,,,,,
26,sub003,3,29,52,,0,,,,,,,,
27,sub003,3,30,54,A,0.0,,1,0.46668238800020845,,60.00566109200008,61.02242823300003,61.92233282300003,7
28,sub003,3,31,56,,0,,,,,,,,
29,sub003,3,32,58,B,0.0,,2,0.6000186290002603,,64.00568604599994,65.02244409700006,65.92236556200032,8
30,sub003,3,33,60,,0,,,,,,,,
31,sub003,3,34,62,A,0.0,,1,0.350011916999847,,68.00572174200033,69.02247385999999,69.9223839350002,9
32,sub003,3,35,64,,0,,,,,,,,
33,sub003,3,36,66,D,0.0,,2,0.35001663299999564,,72.00574310799993,73.02250106500014,73.92242297600023,10
34,sub003,3,37,68,,0,,,,,,,,
35,sub003,3,38,70,,0,,,,,,,,
36,sub003,3,39,72,A,0.0,,1,0.316681835000054,,78.00577789099998,79.02254239900003,79.92246179099993,11
37,sub003,3,40,74,,0,,,,,,,,
38,sub003,3,41,76,,0,,,,,,,,
39,sub003,3,42,78,,0,,,,,,,,
40,sub003,3,43,80,C,0.0,,1,0.3666537240001162,,86.00584710500016,87.02259407800011,87.92252246900034,12
41,sub003,3,44,82,,0,,,,,,,,
42,sub003,3,45,84,,0,,,,,,,,
43,sub003,3,46,86,,0,,,,,,,,
44,sub003,3,47,88,A,0.0,,1,0.3833290229999875,,94.00589042299998,95.02264384599994,95.9225586890002,13
45,sub003,3,48,90,,0,,,,,,,,
46,sub003,3,49,92,,0,,,,,,,,
47,sub003,3,50,94,D,0.0,,2,0.3499978640002155,,100.00593897099998,101.02268490100005,101.92259880100028,14
48,sub003,3,51,96,,0,,,,,,,,
49,sub003,3,52,98,,0,,,,,,,,
50,sub003,3,53,100,C,0.0,,1,0.3166786060000959,,106.00595802099997,107.02274298400016,107.922641655,15
51,sub003,3,54,102,,0,,,,,,,,
52,sub003,3,55,104,A,0.0,,1,0.5333562619998702,,110.00599221100038,111.02274646600017,111.92267304200004,16
53,sub003,3,56,106,,0,,,,,,,,
54,sub003,3,57,108,,0,,,,,,,,
55,sub003,3,58,110,B,0.0,,2,0.2999963120000757,,116.006044492,117.02279309100004,117.92271154500031,17
56,sub003,3,59,112,,0,,,,,,,,
57,sub003,3,60,114,,0,,,,,,,,
58,sub003,3,61,116,C,0.0,,1,0.333358336999936,,122.00607334400001,123.02283896000017,123.92274192800005,18
59,sub003,3,62,118,,0,,,,,,,,
60,sub003,3,63,120,,0,,,,,,,,
61,sub003,3,64,122,D,0.0,,2,0.3333473140000933,,128.00611342599996,129.02286936200016,129.92279075100032,19
62,sub003,3,65,124,,0,,,,,,,,
63,sub003,3,66,126,A,0.0,,1,0.550004753000394,,132.00614103299995,133.022910358,133.92281568700037,20
64,sub003,3,67,128,,0,,,,,,,,
65,sub003,3,68,130,,0,,,,,,,,
66,sub003,3,69,132,,0,,,,,,,,
67,sub003,3,70,134,B,0.0,,2,0.6166694449998431,,140.00619626000025,141.02295051700003,141.92288367200035,21
68,sub003,3,71,136,,0,,,,,,,,
69,sub003,3,72,138,,0,,,,,,,,
70,sub003,3,73,140,D,0.0,,2,0.3166611480000938,,146.00624752500016,147.0230033150001,147.922918493,22
71,sub003,3,74,142,,0,,,,,,,,
72,sub003,3,75,144,B,0.0,,2,0.6666638930000772,,150.006272954,151.02302388399994,151.92295853600035,23
73,sub003,3,76,146,,0,,,,,,,,
74,sub003,3,77,148,,0,,,,,,,,
75,sub003,3,78,150,,0,,,,,,,,
76,sub003,3,79,152,C,0.0,,1,0.4333537040001829,,158.00631595000004,159.02308315200025,159.9230009400003,24
77,sub003,3,80,154,,0,,,,,,,,
78,sub003,3,81,156,,0,,,,,,,,
79,sub003,3,82,158,D,0.0,,2,0.34999975700020514,,164.00638306700012,165.02311803500015,165.92305444800013,25
80,sub003,3,83,160,,0,,,,,,,,
81,sub003,3,84,162,,0,,,,,,,,
82,sub003,3,85,164,,0,,,,,,,,
83,sub003,3,86,166,C,0.0,,1,0.3333571129996926,,172.00641537900037,173.0231793820003,173.923113629,26
84,sub003,3,87,168,,0,,,,,,,,
85,sub003,3,88,170,,0,,,,,,,,
86,sub003,3,89,172,A,0.0,,1,0.3666733810000551,,178.00646636400006,179.02323396600013,179.92314774800025,27
87,sub003,3,90,174,,0,,,,,,,,
88,sub003,3,91,176,,0,,,,,,,,
89,sub003,3,92,178,D,0.0,,2,0.33333692299993345,,184.006503994,185.02327931200034,185.9231786710002,28
90,sub003,3,93,180,,0,,,,,,,,
91,sub003,3,94,182,,0,,,,,,,,
92,sub003,3,95,184,B,0.0,,2,0.633361813999727,,190.00654916800022,191.0233058650001,191.9232328410003,29
93,sub003,3,96,186,,0,,,,,,,,
94,sub003,3,97,188,C,0.0,,1,0.4166894360000697,,194.00657628199997,195.02333914600013,195.92325485300034,30
95,sub003,3,98,190,,0,,,,,,,,
96,sub003,3,99,192,B,0.0,,2,0.466675572999975,,198.00661222600002,199.02337092900007,199.9232915030002,31
97,sub003,3,100,194,,0,,,,,,,,
98,sub003,3,101,196,A,0.0,,1,0.40002128300011464,,202.00663621600006,203.02341230399998,203.923307689,32
99,sub003,3,102,198,,0,,,,,,,,
100,sub003,3,103,200,,0,,,,,,,,
101,sub003,3,104,202,,0,,,,,,,,
102,sub003,3,105,204,B,0.0,,2,0.4666777249999541,,210.00669816400023,211.02347379399998,211.92337336000037,33
103,sub003,3,106,206,,0,,,,,,,,
104,sub003,3,107,208,,0,,,,,,,,
105,sub003,3,108,210,,0,,,,,,,,
106,sub003,3,109,212,D,0.0,,2,0.433358404000046,,218.00674833600033,219.02351398700011,219.92342405499994,34
107,sub003,3,110,214,,0,,,,,,,,
108,sub003,3,111,216,A,0.0,,1,0.33334110900023006,,222.00678414599997,223.02353728700018,223.92346686100018,35
109,sub003,3,112,218,,0,,,,,,,,
110,sub003,3,113,220,D,0.0,,2,0.35001067699977284,,226.00680720000037,227.02357516700022,227.92348995500015,36
111,sub003,3,114,222,,0,,,,,,,,
112,sub003,3,115,224,,0,,,,,,,,
113,sub003,3,116,226,B,0.0,,2,0.48348096199970314,,232.00685686700035,233.02362298700018,233.92353443699994,37
114,sub003,3,117,228,,0,,,,,,,,
115,sub003,3,118,230,C,0.0,,1,0.3333970009998666,,236.00687687200025,237.0236452250001,237.92358770300007,38
116,sub003,3,119,232,,0,,,,,,,,
117,sub003,3,120,234,A,0.0,,1,0.4834747229997447,,240.00691810800026,241.02367927100022,241.92360029200017,39
118,sub003,3,121,236,,0,,,,,,,,
119,sub003,3,122,238,,0,,,,,,,,
120,sub003,3,123,240,B,0.0,,2,0.36666867400026604,,246.00696125800005,247.02371416799997,247.92364221900016,40
121,sub003,3,124,242,,0,,,,,,,,
122,sub003,3,125,244,,0,,,,,,,,
123,sub003,3,126,246,A,0.0,,1,0.4000195509997866,,252.0070063520002,253.02376107400005,253.92368866300012,41
124,sub003,3,127,248,,0,,,,,,,,
125,sub003,3,128,250,,0,,,,,,,,
126,sub003,3,129,252,,0,,,,,,,,
127,sub003,3,130,254,C,0.0,,1,0.34999484799982383,,260.0070809910003,261.02382115499995,261.92374716700033,42
128,sub003,3,131,256,,0,,,,,,,,
129,sub003,3,132,258,D,0.0,,2,0.4000084389999756,,264.0070934680002,265.0238598670003,265.92377680200025,43
130,sub003,3,133,260,,0,,,,,,,,
131,sub003,3,134,262,,0,,,,,,,,
132,sub003,3,135,264,B,0.0,,2,0.4000394380000216,,270.00714049800035,271.02390406199993,271.92382384600023,44
133,sub003,3,136,266,,0,,,,,,,,
134,sub003,3,137,268,A,0.0,,1,0.3833351869998296,,274.0071752980002,275.02393233700013,275.92384996600003,45
135,sub003,3,138,270,,0,,,,,,,,
136,sub003,3,139,272,D,0.0,,2,0.35000446999993073,,278.007214277,279.0239673660003,279.92387499999995,46
137,sub003,3,140,274,,0,,,,,,,,
138,sub003,3,141,276,,0,,,,,,,,
139,sub003,3,142,278,C,0.0,,1,0.3166584360001252,,284.007261408,285.0240081940001,285.9239207370001,47
140,sub003,3,143,280,,0,,,,,,,,
141,sub003,3,144,282,,0,,,,,,,,
142,sub003,3,145,284,,0,,,,,,,,
143,sub003,3,146,286,,0,,,,,,,,
144,sub003,3,147,288,,0,,,,,,,,
