,Sub,Run,TR,Onset,Item,Change,CorrResp,Resp,RT,Acc,image_on,button_on,button_off,Trial_ID
0,sub003,7,3,0,,0,,,,,,,,
1,sub003,7,4,2,,0,,,,,,,,
2,sub003,7,5,4,,0,,,,,,,,
3,sub003,7,6,6,C,0.0,,1,0.3833563610000965,,12.006061022999802,13.02280648199985,13.922747035000157,0
4,sub003,7,7,8,,0,,,,,,,,
5,sub003,7,8,10,A,0.0,,1,0.33335977999968236,,16.006111392000093,17.022877194000102,17.9228110439999,1
6,sub003,7,9,12,,0,,,,,,,,
7,sub003,7,10,14,,0,,,,,,,,
8,sub003,7,11,16,B,0.0,,2,0.3833393220002108,,22.006346844999825,23.023099299000023,23.923012265000125,2
9,sub003,7,12,18,,0,,,,,,,,
10,sub003,7,13,20,C,0.0,,1,0.18333835500015994,,26.00637460600001,27.023156284999914,27.92306275100009,3
11,sub003,7,14,22,,0,,,,,,,,
12,sub003,7,15,24,A,0.0,,1,0.25000870699977895,,30.0064237900001,31.02318364599978,31.923105099000168,4
13,sub003,7,16,26,,0,,,,,,,,
14,sub003,7,17,28,,0,,,,,,,,
15,sub003,7,18,30,,0,,,,,,,,
16,sub003,7,19,32,C,0.0,,1,0.38335608399984267,,38.00649900899998,39.0232794399999,39.923186279999754,5
17,sub003,7,20,34,,0,,,,,,,,
18,sub003,7,21,36,,0,,,,,,,,
19,sub003,7,22,38,D,0.0,,2,0.3666975919995821,,44.00657063000017,45.02335145899997,45.92325005299972,6
20,sub003,7,23,40,,0,,,,,,,,
21,sub003,7,24,42,A,0.0,,1,0.2833329160002904,,48.00662247399987,49.02336965299992,49.92330133899986,7
22,sub003,7,25,44,,0,,,,,,,,
23,sub003,7,26,46,,0,,,,,,,,
24,sub003,7,27,48,D,0.0,,2,0.30002025400017374,,54.00667296099982,55.023446652000075,55.92335828299974,8
25,sub003,7,28,50,,0,,,,,,,,
26,sub003,7,29,52,,0,,,,,,,,
27,sub003,7,30,54,B,0.0,,2,0.3500218969998059,,60.00673266500007,61.02350659600006,61.92343343799985,9
28,sub003,7,31,56,,0,,,,,,,,
29,sub003,7,32,58,D,0.0,,2,0.3166931629998544,,64.00679294400015,65.02358360500011,65.92346496099981,10
30,sub003,7,33,60,,0,,,,,,,,
31,sub003,7,34,62,,0,,,,,,,,
32,sub003,7,35,64,B,0.0,,2,0.350012696000249,,70.00686070799975,71.02361031100008,71.92355229399982,11
33,sub003,7,36,66,,0,,,,,,,,
34,sub003,7,37,68,D,0.0,,2,0.2666764189998503,,74.00689358399995,75.02366560700011,75.92357727699982,12
35,sub003,7,38,70,,0,,,,,,,,
36,sub003,7,39,72,,0,,,,,,,,
37,sub003,7,40,74,B,0.0,,2,0.38333855300015784,,80.00696273099993,81.02373749599974,81.923638364,13
38,sub003,7,41,76,,0,,,,,,,,
39,sub003,7,42,78,,0,,,,,,,,
40,sub003,7,43,80,,0,,,,,,,,
41,sub003,7,44,82,C,0.0,,1,0.300002492999738,,88.00705650300006,89.02383259599992,89.9237430799999,14
42,sub003,7,45,84,,0,,,,,,,,
43,sub003,7,46,86,,0,,,,,,,,
44,sub003,7,47,88,A,0.0,,1,0.46668521899982807,,94.00711687900002,95.02387127300017,95.92380227500007,15
45,sub003,7,48,90,,0,,,,,,,,
46,sub003,7,49,92,D,0.0,,2,0.2500067589999162,,98.00715161400012,99.02391638500012,99.92383508700004,16
47,sub003,7,50,94,,0,,,,,,,,
48,sub003,7,51,96,B,0.0,,2,0.35001949399975274,,102.00718808900001,103.02395230899992,103.92387886899996,17
49,sub003,7,52,98,,0,,,,,,,,
50,sub003,7,53,100,,0,,,,,,,,
51,sub003,7,54,102,,0,,,,,,,,
52,sub003,7,55,104,C,0.0,,1,0.5833544840002105,,110.00727969699983,111.02405055100007,111.92396703799977,18
53,sub003,7,56,106,,0,,,,,,,,
54,sub003,7,57,108,,0,,,,,,,,
55,sub003,7,58,110,,0,,,,,,,,
56,sub003,7,59,112,B,0.0,,2,0.5166716049998286,,118.0073800539999,119.0241313040001,119.92406825999979,19
57,sub003,7,60,114,,0,,,,,,,,
58,sub003,7,61,116,,0,,,,,,,,
59,sub003,7,62,118,A,0.0,,1,0.2666822780001894,,124.00742387499986,125.024204414,125.92411738300007,20
60,sub003,7,63,120,,0,,,,,,,,
61,sub003,7,64,122,,0,,,,,,,,
62,sub003,7,65,124,C,0.0,,1,0.3666932480000469,,130.0074878979999,131.02426752099973,131.92417686299996,21
63,sub003,7,66,126,,0,,,,,,,,
64,sub003,7,67,128,A,0.0,,1,0.11666306000006443,,134.0075500150001,135.02430831399988,135.92422352199992,22
65,sub003,7,68,130,,0,,,,,,,,
66,sub003,7,69,132,D,0.0,,2,0.3166885059999913,,138.00757909599997,139.02434538599982,139.92425907400002,23
67,sub003,7,70,134,,0,,,,,,,,
68,sub003,7,71,136,A,0.0,,1,0.2166723809996256,,142.00763394900014,143.02438226599998,143.92431938799973,24
69,sub003,7,72,138,,0,,,,,,,,
70,sub003,7,73,140,,0,,,,,,,,
71,sub003,7,74,142,C,0.0,,1,0.2666708639999342,,148.00769683199997,149.02445031099978,149.92440116199987,25
72,sub003,7,75,144,,0,,,,,,,,
73,sub003,7,76,146,,0,,,,,,,,
74,sub003,7,77,148,D,0.0,,2,0.4666846899999655,,154.0077444210001,155.0245262389999,155.92443329800017,26
75,sub003,7,78,150,,0,,,,,,,,
76,sub003,7,79,152,,0,,,,,,,,
77,sub003,7,80,154,,0,,,,,,,,
78,sub003,7,81,156,B,0.0,,2,0.4002978710000207,,162.00785050600007,163.0246012990001,163.92451499900017,27
79,sub003,7,82,158,,0,,,,,,,,
80,sub003,7,83,160,,0,,,,,,,,
81,sub003,7,84,162,A,0.0,,1,0.20001050499968187,,168.00790076500016,169.0246654419998,169.92458621200012,28
82,sub003,7,85,164,,0,,,,,,,,
83,sub003,7,86,166,,0,,,,,,,,
84,sub003,7,87,168,,0,,,,,,,,
85,sub003,7,88,170,D,0.0,,2,0.3666778639999393,,176.00798156700012,177.02474777099997,177.9246751589999,29
86,sub003,7,89,172,,0,,,,,,,,
87,sub003,7,90,174,B,0.0,,2,0.3666868289997183,,180.0080195390001,181.02479597,181.92472099399993,30
88,sub003,7,91,176,,0,,,,,,,,
89,sub003,7,92,178,C,0.0,,1,0.33330553499990856,,184.0081177259999,185.02483345200017,185.9247551819999,31
90,sub003,7,93,180,,0,,,,,,,,
91,sub003,7,94,182,,0,,,,,,,,
92,sub003,7,95,184,,0,,,,,,,,
93,sub003,7,96,186,D,0.0,,2,0.31667527899980996,,192.00816295100003,193.02492174300005,193.92483598599983,32
94,sub003,7,97,188,,0,,,,,,,,
95,sub003,7,98,190,C,0.0,,1,0.28333542000018497,,196.00820256299994,197.02495640799998,197.9248830900001,33
96,sub003,7,99,192,,0,,,,,,,,
97,sub003,7,100,194,A,0.0,,1,0.31667776099993716,,200.0082446450001,201.02502153399973,201.92492585799982,34
98,sub003,7,101,196,,0,,,,,,,,
99,sub003,7,102,198,,0,,,,,,,,
100,sub003,7,103,200,B,0.0,,2,0.3500213590000385,,206.00830079299976,207.02506968999978,207.9250294630001,35
101,sub003,7,104,202,,0,,,,,,,,
102,sub003,7,105,204,,0,,,,,,,,
103,sub003,7,106,206,C,0.0,,1,0.16667962800011082,,212.0083664929998,213.025129267,213.92505498399987,36
104,sub003,7,107,208,,0,,,,,,,,
105,sub003,7,108,210,D,0.0,,2,0.4003436600000896,,216.00840445899985,217.02517243900002,217.9250865089998,37
106,sub003,7,109,212,,0,,,,,,,,
107,sub003,7,110,214,,0,,,,,,,,
108,sub003,7,111,216,,0,,,,,,,,
109,sub003,7,112,218,C,0.0,,1,0.3333395829999972,,224.00849168700006,225.02528168799972,225.925175114,38
110,sub003,7,113,220,,0,,,,,,,,
111,sub003,7,114,222,,0,,,,,,,,
112,sub003,7,115,224,D,0.0,,2,0.3333314349997636,,230.00856883200004,231.02531941999996,231.92524224599993,39
113,sub003,7,116,226,,0,,,,,,,,
114,sub003,7,117,228,A,0.0,,1,0.6166812239998762,,234.00859703200013,235.025366673,235.92527819399993,40
115,sub003,7,118,230,,0,,,,,,,,
116,sub003,7,119,232,,0,,,,,,,,
117,sub003,7,120,234,B,0.0,,2,0.38336745900005553,,240.00865485899976,241.02542229499977,241.92534535999994,41
118,sub003,7,121,236,,0,,,,,,,,
119,sub003,7,122,238,A,0.0,,1,0.33334956899989265,,244.00869873200008,245.02547847899996,245.92541097000003,42
120,sub003,7,123,240,,0,,,,,,,,
121,sub003,7,124,242,,0,,,,,,,,
122,sub003,7,125,244,C,0.0,,1,0.3833625909996954,,250.00876095700005,251.025534419,251.925447308,43
123,sub003,7,126,246,,0,,,,,,,,
124,sub003,7,127,248,,0,,,,,,,,
125,sub003,7,128,250,B,0.0,,2,0.3500103199999103,,256.00884389400017,257.02559040799997,257.92552112099975,44
126,sub003,7,129,252,,0,,,,,,,,
127,sub003,7,130,254,,0,,,,,,,,
128,sub003,7,131,256,A,0.0,,1,0.40032103200019264,,262.0088890679999,263.02565774100003,263.9255933469999,45
129,sub003,7,132,258,,0,,,,,,,,
130,sub003,7,133,260,B,0.0,,2,0.4166724280003109,,266.00893869799984,267.02569726799993,267.9256153860001,46
131,sub003,7,134,262,,0,,,,,,,,
132,sub003,7,135,264,,0,,,,,,,,
133,sub003,7,136,266,D,0.0,,2,0.3833374289997664,,272.00900983300016,273.0257854649999,273.9256860539999,47
134,sub003,7,137,268,,0,,,,,,,,
135,sub003,7,138,270,,0,,,,,,,,
136,sub003,7,139,272,,0,,,,,,,,
137,sub003,7,140,274,,0,,,,,,,,
138,sub003,7,141,276,,0,,,,,,,,
